Time,AccX,AccY,AccZ
""
""
0,2308,-164,17616
1,2392,-52,17612
2,2280,-48,17620
3,2244,-160,17608
4,2260,-96,17524
5,2208,-168,17560
6,2136,-116,17528
7,2256,-140,17632
8,2308,-192,17632
9,2272,-212,17544
10,2264,-164,17580
11,2264,-164,17580
12,2296,-108,17468
13,2264,-176,17496
14,2228,-184,17584
15,2216,-180,17612
16,2268,-144,17532
17,2224,-52,17692
18,2220,-20,17640
19,2216,-176,17552
20,2200,-168,17604
21,2228,-280,17620
22,2228,-280,17620
23,2244,-212,17524
24,2172,-120,17464
25,2212,-144,17540
26,2216,-140,17668
27,2244,-76,17680
28,2236,-156,17488
29,2236,-80,17512
30,2256,-120,17468
31,2304,-140,17636
32,2260,-236,17680
33,2260,-236,17680
34,2252,-252,17644
35,2172,-196,17564
36,2168,-220,17432
37,2236,-160,17540
38,2172,-164,17564
39,2176,-192,17596
40,2156,-208,17632
41,2244,-204,17600
42,2308,-228,17724
43,2320,-208,17540
44,2320,-208,17540
45,2340,-224,17412
46,2252,-132,17612
47,2256,-120,17632
48,2224,-196,17524
49,2304,-204,17500
50,2372,-96,17540
51,2256,-92,17504
52,2272,-116,17408
53,2256,-232,17552
54,2256,-232,17552
55,2228,-164,17656
56,2316,-148,17656
57,2260,-184,17612
58,2208,-76,17488
59,2144,-188,17528
60,2220,-216,17472
61,2248,-180,17588
62,2280,-184,17664
63,2280,-204,17632
64,2208,-72,17536
65,2208,-72,17536
66,2192,-68,17640
67,2148,-128,17532
68,2216,-168,17588
69,2240,-152,17532
70,2240,-240,17560
71,2320,-144,17512
72,2300,-116,17492
73,2224,-68,17428
74,2216,-132,17640
75,2308,-48,17652
76,2308,-48,17652
77,2304,-32,17560
78,2324,-40,17608
79,2236,-92,17532
80,2208,-132,17644
81,2208,-152,17572
82,2204,-84,17584
83,2180,-232,17444
84,2208,-168,17444
85,2224,-56,17424
86,2236,-128,17460
87,2236,-128,17460
88,2224,-124,17584
89,2212,-176,17676
90,2260,-152,17620
91,2208,-216,17588
92,2212,-136,17640
93,2240,-176,17692
94,2284,-68,17660
95,2268,-116,17576
96,2308,-100,17580
97,2252,-52,17616
98,2252,-52,17616
99,2224,-144,17540
100,2256,-160,17536
101,2232,-148,17544
102,2252,-188,17532
103,2268,-60,17560
104,2252,-156,17620
105,2172,-132,17600
106,2284,-164,17516
107,2256,-100,17436
108,2192,-120,17552
109,2192,-120,17552
110,2324,-24,17556
111,2284,-36,17600
112,2184,-64,17560
113,2152,-32,17432
114,2196,-124,17476
115,2272,-100,17612
116,2224,-276,17440
117,2280,-152,17464
118,2288,-220,17460
119,2184,-64,17484
120,2184,-64,17484
121,2348,-32,17512
122,2320,-132,17484
123,2332,-56,17588
124,2348,-24,17672
125,2208,-200,17560
126,2284,-156,17548
127,2308,-64,17524
128,2276,-104,17516
129,2260,-200,17548
130,2260,-56,17600
131,2260,-56,17600
132,2252,-188,17564
133,2316,-84,17468
134,2336,-176,17532
135,2304,-136,17520
136,2204,-152,17576
137,2224,-116,17528
138,2276,-108,17564
139,2316,-136,17628
140,2280,-160,17620
141,2184,-228,17656
142,2184,-228,17656
143,2192,-124,17452
144,2276,-168,17588
145,2228,-156,17628
146,2220,-152,17648
147,2280,-64,17608
148,2252,-140,17676
149,2244,-92,17656
150,2292,-156,17600
151,2288,-136,17656
152,2244,-132,17620
153,2244,-132,17620
154,2292,-232,17532
155,2224,-168,17472
156,2224,-120,17524
157,2180,-196,17512
158,2264,-180,17636
159,2288,-76,17532
160,2240,-168,17604
161,2236,-112,17624
162,2232,-96,17564
163,2232,-96,17564
164,2228,-4,17560
165,2284,-72,17736
166,2276,-56,17704
167,2340,-164,17544
168,2292,-176,17636
169,2200,-164,17552
170,2264,-188,17384
171,2252,-264,17468
172,2292,-112,17532
173,2304,-172,17496
174,2304,-172,17496
175,2220,-8,17524
176,2244,-104,17500
177,2248,-176,17576
178,2284,-68,17576
179,2280,4,17648
180,2232,-68,17640
181,2332,-132,17648
182,2312,-184,17556
183,2244,-76,17508
184,2316,-92,17488
185,2316,-92,17488
186,2272,-32,17596
187,2284,-96,17572
188,2356,-128,17624
189,2252,-208,17632
190,2260,-212,17444
191,2232,-264,17528
192,2168,-228,17648
193,2184,-144,17516
194,2312,-88,17556
195,2288,-80,17680
196,2288,-80,17680
197,2336,-216,17736
198,2280,-136,17504
199,2292,-224,17584
200,2228,-164,17640
201,2200,-208,17616
202,2280,-120,17540
203,2208,-112,17564
204,2252,-88,17584
205,2372,-80,17548
206,2344,-104,17720
207,2344,-104,17720
208,2272,-88,17596
209,2260,-96,17556
210,2260,-200,17568
211,2304,-168,17572
212,2152,-180,17592
213,2228,-180,17564
214,2344,-120,17648
215,2272,-120,17532
216,2188,-112,17548
217,2180,-144,17476
218,2180,-144,17476
219,2276,-72,17516
220,2200,-124,17444
221,2184,-60,17640
222,2156,-148,17564
223,2332,-176,17468
224,2252,-208,17456
225,2296,-96,17432
226,2256,-128,17584
227,2304,-104,17528
228,2248,-244,17468
229,2248,-244,17468
230,2200,-188,17544
231,2260,-116,17532
232,2216,-144,17600
233,2284,-124,17652
234,2356,-132,17508
235,2324,-148,17400
236,2324,-128,17368
237,2404,-140,17496
238,2376,-96,17604
239,2232,-156,17500
240,2232,-156,17500
241,2164,-112,17616
242,2148,-188,17624
243,2296,-208,17664
244,2288,-116,17580
245,2168,-156,17516
246,2196,-76,17500
247,2268,-32,17592
248,2232,-44,17524
249,2252,-132,17580
250,2344,-88,17668
251,2344,-88,17668
252,2248,-140,17688
253,2292,-92,17672
254,2236,-164,17572
255,2240,-68,17512
256,2308,-180,17408
257,2296,-68,17436
258,2248,-88,17556
259,2216,-44,17556
260,2320,-96,17456
261,2272,-128,17436
262,2272,-128,17436
263,2164,-204,17608
264,2204,-124,17520
265,2232,-172,17564
266,2248,-144,17636
267,2284,-56,17608
268,2196,-72,17504
269,2264,-152,17596
270,2296,-120,17692
271,2280,-40,17580
272,2280,-40,17580
273,2192,-52,17448
274,2136,-160,17468
275,2228,-64,17520
276,2212,-64,17424
277,2300,-132,17436
278,2268,-100,17452
279,2280,-116,17612
280,2268,-12,17604
281,2328,-128,17500
282,2296,-124,17568
283,2296,-124,17568
284,2248,-168,17668
285,2204,-84,17628
286,2200,-164,17556
287,2240,-88,17652
288,2176,-188,17612
289,2164,-120,17544
290,2232,-160,17548
291,2256,-100,17524
292,2196,-108,17608
293,2252,-44,17368
294,2252,-44,17368
295,2260,-84,17492
296,2268,-132,17708
297,2324,-32,17528
298,2284,-100,17404
299,2196,-172,17468
300,2144,-228,17576
301,2300,-100,17568
302,2360,-124,17564
303,2312,-140,17620
304,2300,-220,17620
305,2300,-220,17620
306,2216,-152,17464
307,2276,-236,17488
308,2280,-96,17476
309,2236,-100,17372
310,2176,-120,17376
311,2264,-204,17512
312,2244,-220,17524
313,2208,-192,17484
314,2184,-112,17476
315,2260,-176,17376
316,2260,-176,17376
317,2180,-108,17500
318,2200,-152,17628
319,2280,-116,17568
320,2260,-80,17588
321,2292,-64,17648
322,2292,-128,17520
323,2300,-132,17616
324,2304,-112,17668
325,2232,-140,17772
326,2264,-72,17652
327,2264,-72,17652
328,2232,-72,17588
329,2228,-112,17728
330,2164,-104,17764
331,2168,-28,17608
332,2280,-20,17548
333,2264,-132,17512
334,2268,-192,17540
335,2228,-28,17524
336,2200,-56,17716
337,2212,52,17608
338,2212,52,17608
339,2240,-176,17624
340,2292,-184,17660
341,2308,-244,17476
342,2308,-176,17540
343,2248,-168,17608
344,2304,-192,17632
345,2436,-252,17536
346,2472,-212,17616
347,2308,-180,17692
348,2276,-168,17576
349,2276,-168,17576
350,2336,-68,17524
351,2336,-128,17312
352,2264,-112,17384
353,2164,-140,17564
354,2216,-164,17580
355,2224,-236,17504
356,2348,-176,17532
357,2276,-248,17652
358,2240,-160,17616
359,2152,-152,17744
360,2152,-152,17744
361,2256,-28,17612
362,2164,40,17516
363,2172,-68,17716
364,2172,-196,17652
365,2172,-24,17440
366,2252,-176,17480
367,2204,-44,17700
368,2268,28,17624
369,2220,-64,17580
370,2220,-64,17580
371,2264,0,17476
372,2300,-32,17604
373,2304,-172,17556
374,2288,-224,17520
375,2444,-216,17444
376,2464,-280,17516
377,2400,-260,17632
378,2312,-168,17480
379,2328,-184,17588
380,2296,-348,17688
381,2296,-348,17688
382,2164,-216,17636
383,2188,-144,17636
384,2348,-120,17632
385,2116,-156,17840
386,2140,-40,17984
387,2112,-32,17796
388,2244,-52,17516
389,2252,-16,17400
390,2280,40,17524
391,2232,12,17724
392,2232,12,17724
393,2276,92,17592
394,2132,-56,17624
395,2232,-128,17500
396,2236,-236,17312
397,2448,-284,17120
398,2448,-260,17308
399,2500,-408,17408
400,2444,-368,17316
401,2416,-352,17464
402,2332,-240,17712
403,2332,-240,17712
404,2232,-292,17796
405,2204,-184,17696
406,2192,-144,17776
407,2104,0,18024
408,2072,116,17812
409,2020,100,17588
410,2224,136,17544
411,2284,116,17380
412,2184,108,17512
413,2172,148,17592
414,2172,148,17592
415,2208,-12,17656
416,2336,-68,17340
417,2424,-296,17096
418,2608,-372,16960
419,2676,-452,17136
420,2724,-452,17084
421,2540,-400,17204
422,2236,-304,17744
423,2116,-272,18028
424,2068,-240,17908
425,2068,-240,17908
426,1996,-104,18140
427,1860,32,18152
428,1956,180,17768
429,2164,208,17428
430,2224,356,17348
431,2196,396,17436
432,2048,92,17596
433,1980,84,17928
434,2096,-60,17728
435,2524,-348,17240
436,2524,-348,17240
437,2816,-552,16772
438,2996,-804,16816
439,2804,-612,16900
440,2448,-508,17496
441,2212,-288,17972
442,1984,-276,18108
443,1788,-84,18496
444,1780,224,18632
445,1828,360,18236
446,2032,424,17516
447,2032,424,17516
448,2264,608,17004
449,2200,548,17140
450,1928,88,17728
451,1952,56,17972
452,2192,-296,17728
453,2884,-588,16928
454,3408,-852,16372
455,3332,-964,16268
456,2808,-820,17044
457,2276,-524,17880
458,2276,-524,17880
459,2020,-360,18288
460,1772,-244,18752
461,1548,204,18948
462,1640,476,18280
463,2012,528,17388
464,2220,944,16892
465,2312,828,16792
466,1688,72,17880
467,1964,132,18132
468,1964,132,18132
469,2164,-576,17944
470,3228,-932,16500
471,3632,-1000,15704
472,3580,-1116,15964
473,2844,-832,17344
474,2124,-452,18240
475,1548,-280,18948
476,1304,160,19228
477,1372,764,18628
478,1740,752,17504
479,1740,752,17504
480,2044,888,16744
481,2196,1308,16484
482,1560,440,17720
483,1776,148,18600
484,2148,-1048,18620
485,3516,-1660,16172
486,4208,-1396,14900
487,3928,-1220,15612
488,2816,-1024,17512
489,2044,-664,18848
490,2044,-664,18848
491,1168,-96,19724
492,888,700,19576
493,1280,1104,18404
494,1900,1152,16956
495,2184,1576,16240
496,1868,1068,16444
497,1268,764,18756
498,1448,-892,19976
499,3028,-2136,17504
500,4640,-1844,14180
501,4640,-1844,14180
502,4884,-1252,14056
503,3644,-1280,16608
504,2112,-1160,19068
505,1144,-248,20300
506,624,684,19872
507,884,1344,18512
508,1696,1512,16936
509,2060,1892,15796
510,1600,1260,16468
511,972,1152,18960
512,972,1152,18960
513,1180,-996,20916
514,3136,-2528,17956
515,4920,-1912,13836
516,5208,-1104,13380
517,3756,-1100,16320
518,2156,-1048,18892
519,1284,-356,19828
520,732,496,19784
521,684,1276,19044
522,1308,1376,17768
523,1308,1376,17768
524,2108,1300,16552
525,2344,1148,16568
526,1736,228,18072
527,1968,-264,18748
528,2616,-1324,18004
529,3752,-1280,15612
530,4032,-1020,14944
531,3540,-1012,15952
532,2524,-836,17684
533,1724,-264,18708
534,1724,-264,18708
535,1452,76,18888
536,1392,124,18836
537,1444,364,18692
538,1876,484,18032
539,2120,288,17436
540,2300,352,17184
541,2408,256,16948
542,2404,-168,17144
543,2332,-220,17504
544,2320,-276,17504
545,2320,-276,17504
546,2472,-316,17332
547,2548,-344,17120
548,2588,-492,17224
549,2548,-452,17260
550,2176,-292,17656
551,2160,-172,17920
552,2024,-160,17996
553,2100,-236,17836
554,1952,-220,17956
555,1844,0,18172
556,1844,0,18172
557,1924,96,17940
558,2156,192,17552
559,2272,136,17444
560,2236,-20,17456
561,2056,-100,17772
562,2088,-32,17756
563,2236,-32,17444
564,2296,-128,17360
565,2480,-412,17352
566,2604,-564,17300
567,2604,-564,17300
568,2524,-376,17304
569,2496,-404,17288
570,2372,-324,17404
571,2300,-280,17592
572,2244,-252,17672
573,2176,-272,17764
574,2080,-112,17780
575,2148,-216,17664
576,2236,-32,17652
577,2236,-32,17652
578,2176,-24,17720
579,2100,-8,17552
580,2188,-12,17444
581,2272,80,17368
582,2212,-40,17500
583,2184,-112,17624
584,2268,12,17532
585,2184,-108,17432
586,2260,-132,17452
587,2360,-156,17460
588,2360,-156,17460
589,2372,-212,17528
590,2332,-164,17424
591,2384,-156,17456
592,2380,-180,17512
593,2244,-124,17512
594,2208,-128,17536
595,2204,-80,17752
596,2240,-132,17568
597,2288,-56,17620
598,2324,-104,17744
599,2324,-104,17744
600,2276,-120,17656
601,2280,-260,17616
602,2208,-92,17696
603,2148,-156,17768
604,2156,-176,17608
605,2280,-152,17616
606,2268,-44,17568
607,2240,-88,17500
608,2304,-180,17604
609,2208,-128,17556
610,2208,-128,17556
611,2304,-112,17580
612,2232,-120,17484
613,2244,-176,17600
614,2300,-64,17512
615,2312,-4,17508
616,2240,-112,17568
617,2180,-168,17576
618,2256,-100,17624
619,2316,-148,17484
620,2360,-132,17456
621,2360,-132,17456
622,2324,-196,17580
623,2328,-216,17544
624,2400,-224,17528
625,2340,-148,17640
626,2280,-240,17520
627,2236,-116,17368
628,2188,-256,17588
629,2252,-252,17588
630,2304,-228,17476
631,2372,-156,17572
632,2372,-156,17572
633,2312,-180,17592
634,2216,-220,17660
635,2132,-196,17848
636,2172,-108,17656
637,2244,-52,17520
638,2188,-112,17424
639,2252,-44,17572
640,2228,-100,17560
641,2212,-112,17376
642,2124,-80,17588
643,2124,-80,17588
644,2156,44,17480
645,2172,-28,17464
646,2316,12,17472
647,2264,-132,17472
648,2320,-112,17352
649,2280,-44,17504
650,2396,-228,17436
651,2464,-304,17492
652,2404,-280,17416
653,2352,-244,17420
654,2352,-244,17420
655,2268,-188,17404
656,2344,-196,17580
657,2300,-204,17588
658,2232,-132,17628
659,2212,-156,17760
660,2044,-112,17920
661,2056,60,17824
662,2176,108,17640
663,2296,20,17536
664,2308,-44,17544
665,2308,-44,17544
666,2224,-88,17624
667,2132,36,17684
668,2124,76,17544
669,2164,-4,17520
670,2372,-196,17412
671,2428,-176,17508
672,2504,-284,17480
673,2428,-280,17376
674,2516,-360,17436
675,2516,-360,17436
676,2476,-340,17436
677,2284,-284,17480
678,2256,-244,17716
679,2188,-288,17752
680,2120,-296,17896
681,2112,-156,18044
682,1976,72,17984
683,2076,48,17688
684,2164,116,17412
685,2228,152,17340
686,2228,152,17340
687,2096,188,17632
688,1896,92,17796
689,1992,72,17748
690,2280,8,17400
691,2436,-248,17240
692,2620,-416,17052
693,2680,-608,17244
694,2724,-628,17104
695,2748,-600,17176
696,2472,-372,17560
697,2472,-372,17560
698,2132,-296,18004
699,2104,-176,17980
700,1868,-84,18256
701,1752,84,18328
702,1908,284,17944
703,2172,280,17460
704,2260,296,17276
705,2128,360,17316
706,2028,116,17684
707,1844,104,17908
708,1844,104,17908
709,2232,-188,17488
710,2624,-412,17192
711,2840,-720,16924
712,3020,-832,16736
713,2992,-804,16672
714,2608,-588,17320
715,2204,-296,17940
716,1960,-288,18184
717,1712,-204,18596
718,1596,160,18620
719,1596,160,18620
720,1748,492,18124
721,2096,528,17348
722,2292,548,16920
723,2208,520,17016
724,1700,24,17880
725,1912,172,17932
726,2252,-392,17744
727,3020,-708,16828
728,3368,-1076,16416
729,3340,-1080,16348
730,3340,-1080,16348
731,2768,-836,17116
732,2208,-444,18084
733,1840,-424,18476
734,1580,-196,18892
735,1440,412,18836
736,1588,752,17900
737,1936,820,17084
738,2212,1100,16740
739,2060,676,16976
740,1576,312,18292
741,1576,312,18292
742,1900,-212,18320
743,2648,-992,17460
744,3500,-1396,16264
745,3924,-1224,15444
746,3304,-1160,16356
747,2488,-828,17956
748,1768,-572,18900
749,1300,-344,19472
750,1184,528,19116
751,1300,1164,18156
752,1300,1164,18156
753,1920,1108,17116
754,2136,1464,16456
755,1764,896,16708
756,1408,624,18540
757,1860,-588,19196
758,3020,-1860,17140
759,4072,-1960,15056
760,4428,-1304,14772
761,3596,-1260,16420
762,2512,-1156,18476
763,2512,-1156,18476
764,1464,-884,19784
765,780,48,20048
766,852,1264,18892
767,1556,1868,17156
768,2200,1936,16008
769,2108,1672,15728
770,1096,1116,18032
771,1112,220,20008
772,2264,-2308,19328
773,2264,-2308,19328
774,4128,-3024,15280
775,5308,-1648,13104
776,4400,-1216,15176
777,2664,-1556,18412
778,1496,-1084,20416
779,688,332,20460
780,592,1728,18952
781,1304,2464,17144
782,1980,2748,15584
783,1712,1820,15592
784,1712,1820,15592
785,1288,1756,17968
786,424,184,21636
787,2140,-3144,20608
788,4960,-4372,14460
789,6316,-1836,11472
790,5080,-1188,14680
791,2356,-1792,19612
792,1004,-820,21096
793,684,892,19992
794,884,2316,18224
795,884,2316,18224
796,1296,3432,16512
797,1412,2940,15112
798,1116,2056,16348
799,708,1376,19392
800,636,-1548,23580
801,2956,-5496,19744
802,6420,-3900,11084
803,6880,-1160,10856
804,3980,-1724,17372
805,1264,-1048,21356
806,1264,-1048,21356
807,724,592,20600
808,1028,1788,18300
809,1188,3540,16632
810,588,3596,15688
811,604,3112,16096
812,780,1620,18656
813,660,-1332,23512
814,2040,-5856,22496
815,6188,-4940,11868
816,7616,-1412,9012
817,7616,-1412,9012
818,4792,-1476,16072
819,1532,-576,21344
820,632,1116,20640
821,1356,1724,18032
822,1392,3484,15984
823,-296,3872,16384
824,-132,3840,16416
825,564,984,19100
826,908,-2992,24328
827,2864,-6656,21180
828,2864,-6656,21180
829,6676,-4204,10548
830,7228,-1556,9860
831,4128,-1476,17428
832,1240,468,21444
833,908,1776,19812
834,1780,2180,16976
835,796,3564,15872
836,-804,4792,16864
837,-356,3048,17944
838,1372,-1352,21400
839,1372,-1352,21400
840,1636,-5936,24708
841,4944,-6280,15380
842,7248,-2180,8916
843,5444,-1680,14024
844,2496,-468,20124
845,1084,2088,20416
846,1712,2204,17860
847,1624,2924,15724
848,-588,4968,16556
849,-1196,4212,17856
850,-1196,4212,17856
851,612,-56,20120
852,1596,-5472,24304
853,4228,-6948,17632
854,6988,-2652,9660
855,5700,-1324,13280
856,2824,-972,19424
857,1112,1932,20492
858,1736,2416,17828
859,2104,2328,15448
860,-60,4796,16068
861,-60,4796,16068
862,-1480,4684,18136
863,228,268,20492
864,1564,-5712,24380
865,4504,-7336,17988
866,6684,-3040,9988
867,5612,-1316,13288
868,2736,-1012,19720
869,1356,2176,20360
870,2100,3076,17320
871,2184,2436,15116
872,2184,2436,15116
873,-8,5092,15780
874,-1780,4660,18816
875,-24,-180,21236
876,1640,-6528,24492
877,4776,-7396,16828
878,7032,-2696,9692
879,5340,-1200,14128
880,2344,-644,20036
881,1232,2712,20032
882,1232,2712,20032
883,2460,3268,16556
884,2180,2756,15004
885,-312,5552,15968
886,-2052,4288,19644
887,-40,-1992,22916
888,2096,-7924,23760
889,5836,-6908,14088
890,7160,-1768,9620
891,4376,-752,15852
892,1608,408,20576
893,1608,408,20576
894,1520,3116,19044
895,2980,2252,15480
896,1668,2896,15208
897,-1200,5180,17800
898,-1520,2944,20444
899,852,-3200,22664
900,3212,-6956,20788
901,5800,-4664,12752
902,6244,-588,11236
903,3884,-1112,16644
904,3884,-1112,16644
905,1840,-404,20104
906,1640,1788,18976
907,1856,1592,17320
908,1100,2500,16608
909,-568,3684,17860
910,-340,2964,18384
911,1468,-272,19304
912,2300,-3752,21396
913,4092,-4928,17156
914,5840,-1988,11804
915,5840,-1988,11804
916,5308,-812,13176
917,3260,-1300,18228
918,1544,40,20100
919,976,600,19392
920,888,1184,18644
921,504,2960,17788
922,592,2416,16744
923,1536,1604,16532
924,1708,828,18272
925,1520,-872,21472
926,1520,-872,21472
927,2680,-3656,19364
928,5236,-2808,13024
929,5708,-756,12096
930,4024,-1008,16036
931,2116,-1140,19496
932,992,-372,20432
933,432,444,19712
934,636,1532,18844
935,1340,2084,17340
936,1884,1312,16428
937,1884,1312,16428
938,2060,1076,16744
939,1272,648,18888
940,1688,-524,19772
941,2924,-1936,17768
942,4272,-1808,14644
943,4556,-1136,14204
944,3716,-1056,15840
945,2356,-816,18124
946,1588,-248,19040
947,1072,60,19468
948,1072,60,19468
949,1040,556,19464
950,1252,964,18412
951,1872,856,17428
952,2276,572,17040
953,2328,268,17148
954,2372,-176,17296
955,2388,-252,17468
956,2568,-376,17152
957,2724,-508,17052
958,2812,-572,16960
959,2812,-572,16960
960,2748,-584,17176
961,2496,-524,17432
962,2288,-392,17704
963,2184,-228,17888
964,2112,-156,17956
965,2108,-184,17968
966,2028,-116,18168
967,1916,184,17988
968,1972,108,17584
969,2216,124,17296
970,2216,124,17296
971,2240,84,17268
972,2252,88,17336
973,2156,-4,17676
974,2048,16,17660
975,2108,-48,17532
976,2356,-76,17344
977,2408,-404,17360
978,2600,-444,17316
979,2508,-244,17380
980,2508,-244,17380
981,2564,-328,17376
982,2480,-400,17492
983,2344,-332,17572
984,2216,-184,17628
985,2104,-124,17784
986,2116,-100,17816
987,2104,-172,17856
988,2116,52,17728
989,2048,84,17596
990,2204,20,17628
991,2204,20,17628
992,2256,4,17400
993,2268,-40,17516
994,2248,-188,17580
995,2196,-56,17656
996,2220,-72,17480
997,2232,-176,17488
998,2308,-228,17452
999,2400,-132,17408
1000,2336,0,17520
1001,2304,-120,17444
1002,2304,-120,17444
1003,2264,-192,17520
1004,2392,-300,17536
1005,2324,-212,17476
1006,2328,-212,17480
1007,2272,-176,17464
1008,2284,-268,17608
1009,2252,-312,17644
1010,2252,-228,17588
1011,2144,-180,17724
1012,2200,-164,17888
1013,2200,-164,17888
1014,2136,-48,17800
1015,2240,-32,17688
1016,2320,84,17516
1017,2280,0,17548
1018,2132,-52,17560
1019,2112,-24,17716
1020,2216,152,17552
1021,2312,-92,17416
1022,2260,-12,17356
1023,2312,-240,17288
1024,2312,-240,17288
1025,2312,-300,17132
1026,2436,-300,17220
1027,2516,-400,17216
1028,2520,-392,17328
1029,2448,-352,17488
1030,2276,-308,17876
1031,2128,-228,17876
1032,2156,-176,17792
1033,2184,-132,17928
1034,1968,16,18084
1035,1968,16,18084
1036,2000,20,17936
1037,2232,128,17568
1038,2288,236,17188
1039,2240,136,17376
1040,2076,96,17804
1041,2044,128,17692
1042,2004,68,17540
1043,2236,16,17348
1044,2460,-316,17220
1045,2688,-456,17056
1046,2688,-456,17056
1047,2652,-548,17196
1048,2668,-504,17176
1049,2572,-524,17400
1050,2320,-472,17696
1051,2176,-364,17940
1052,1972,-324,17992
1053,1756,0,18264
1054,1800,224,18272
1055,2028,276,17740
1056,2184,328,17352
1057,2184,328,17352
1058,2172,480,17144
1059,1944,400,17420
1060,1976,188,17600
1061,2056,148,17784
1062,2224,-132,17432
1063,2572,-460,16876
1064,2888,-720,16760
1065,2912,-836,16716
1066,2736,-744,17024
1067,2516,-732,17536
1068,2516,-732,17536
1069,2300,-472,17948
1070,2020,-468,18348
1071,1624,-52,18760
1072,1680,436,18532
1073,1896,544,17772
1074,2100,640,17236
1075,2124,704,16960
1076,1952,448,17200
1077,1700,172,18000
1078,1700,172,18000
1079,2100,80,17992
1080,2500,-520,17432
1081,3056,-928,16524
1082,3268,-1136,16328
1083,3240,-1060,16524
1084,2816,-820,17424
1085,2308,-632,18108
1086,1768,-544,18592
1087,1448,72,19016
1088,1484,664,18592
1089,1484,664,18592
1090,1876,768,17736
1091,2132,680,17056
1092,2156,1160,16820
1093,1880,508,17360
1094,1800,312,18148
1095,2068,-432,18308
1096,2976,-1152,17052
1097,3556,-1560,16088
1098,3852,-1252,15848
1099,3248,-1060,16804
1100,3248,-1060,16804
1101,2460,-672,18024
1102,1748,-724,18996
1103,1108,-228,19536
1104,1052,1000,18896
1105,1472,1216,17688
1106,2132,1084,16804
1107,2136,1496,16392
1108,1588,688,17288
1109,1708,544,18552
1110,1940,-876,18984
1111,1940,-876,18984
1112,3364,-2040,16640
1113,4268,-1964,14808
1114,4292,-1436,15048
1115,3312,-1132,16904
1116,2172,-964,18760
1117,1300,-588,19872
1118,716,660,19840
1119,1052,1660,18448
1120,1928,1768,16840
1121,2176,1984,15800
1122,2176,1984,15800
1123,1796,1504,16160
1124,1256,1300,18424
1125,1136,-284,20492
1126,2732,-2508,18432
1127,4400,-3112,14544
1128,5212,-1628,13316
1129,4132,-1220,15524
1130,2428,-1636,18920
1131,1244,-896,20560
1132,540,748,20228
1133,540,748,20228
1134,776,1804,18764
1135,1624,2312,16632
1136,2072,2568,15144
1137,1404,1572,16332
1138,1300,1756,18388
1139,700,-600,22228
1140,2616,-3920,19600
1141,5360,-3876,13328
1142,6104,-1512,11916
1143,4372,-1372,15788
1144,4372,-1372,15788
1145,1952,-1672,20228
1146,864,-204,21104
1147,660,1260,19688
1148,1124,2420,17728
1149,1336,3324,15988
1150,1076,2496,15200
1151,1208,2324,16484
1152,372,860,20864
1153,1168,-2640,23088
1154,3752,-5516,17464
1155,3752,-5516,17464
1156,6696,-2888,10332
1157,6240,-1084,12244
1158,3044,-1572,18740
1159,1024,-488,21580
1160,728,900,20116
1161,1200,2004,17860
1162,1196,3684,16108
1163,408,3048,15764
1164,912,2884,16116
1165,620,724,20228
1166,620,724,20228
1167,720,-2848,24468
1168,3340,-6224,19144
1169,6736,-3504,10292
1170,6760,-1308,11104
1171,3512,-1484,18236
1172,944,180,21620
1173,812,1312,19880
1174,1624,1996,17292
1175,1140,3624,15464
1176,1140,3624,15464
1177,-444,3864,16480
1178,148,3156,16844
1179,1056,-276,20844
1180,1044,-4492,24852
1181,4384,-6272,17056
1182,7112,-2504,9176
1183,5920,-1408,12648
1184,2752,-940,19488
1185,796,1328,21028
1186,1204,1492,18572
1187,1204,1492,18572
1188,1848,2488,16112
1189,24,3856,16216
1190,-612,4584,16904
1191,160,1648,19108
1192,1280,-3312,23612
1193,2960,-6740,21512
1194,6108,-4320,11852
1195,6868,-1360,10408
1196,3976,-1520,17500
1197,1468,864,21036
1198,1468,864,21036
1199,1124,2212,19564
1200,2108,1936,16356
1201,880,3464,15808
1202,-968,5172,17004
1203,-520,2736,18704
1204,1196,-2728,22384
1205,2452,-6908,22916
1206,5544,-5452,13372
1207,6888,-1580,9756
1208,4396,-1508,16176
1209,4396,-1508,16176
1210,1716,392,20684
1211,1108,2712,19532
1212,2320,2268,16256
1213,1312,3380,15384
1214,-1064,5344,16980
1215,-1148,3316,19248
1216,964,-2728,22592
1217,2568,-7484,23060
1218,5820,-5924,13428
1219,6952,-1732,9996
1220,6952,-1732,9996
1221,4348,-1456,16340
1222,1660,504,20812
1223,1348,3076,19088
1224,2696,2524,15748
1225,1504,3624,14948
1226,-1320,5628,17140
1227,-1444,3096,19936
1228,516,-3964,23636
1229,2952,-8088,21944
1230,6080,-5488,12248
1231,6080,-5488,12248
1232,6780,-1404,10500
1233,3792,-1196,17496
1234,1352,1180,20864
1235,1664,3664,18292
1236,2936,2472,15036
1237,1256,4384,14836
1238,-1936,5656,18044
1239,-1200,1680,20968
1240,772,-6104,24612
1241,3848,-8592,19312
1242,3848,-8592,19312
1243,7048,-4160,10184
1244,5952,-1288,12832
1245,2724,-652,19276
1246,1024,2344,20492
1247,2400,3888,16732
1248,2800,2488,14328
1249,548,5564,14744
1250,-2452,5028,19760
1251,-724,-1196,22920
1252,1588,-8448,24376
1253,1588,-8448,24376
1254,5424,-7916,14904
1255,7216,-2544,9508
1256,4504,-896,15756
1257,1680,472,20548
1258,1508,3748,19232
1259,3300,3376,15036
1260,2188,3464,14080
1261,-1104,6012,16548
1262,-2124,3104,21412
1263,-364,-5428,25628
1264,-364,-5428,25628
1265,3300,-9508,20656
1266,7068,-5332,10536
1267,6292,-1228,11972
1268,2708,-368,19068
1269,880,2408,20652
1270,2556,4448,16640
1271,3320,2508,13580
1272,1184,5492,14104
1273,-2816,5076,20168
1274,-1364,-1652,24272
1275,-1364,-1652,24272
1276,1428,-9156,24264
1277,5872,-7780,13728
1278,7344,-1976,9464
1279,4036,-104,16564
1280,1204,1020,20812
1281,1672,3484,18684
1282,3580,2568,14584
1283,2156,3036,14764
1284,-1220,5500,17864
1285,-1220,5500,17864
1286,-1920,2748,21428
1287,400,-4688,23548
1288,3760,-7840,19064
1289,6468,-3928,11508
1290,5864,-300,12348
1291,3100,-812,18052
1292,1564,228,20256
1293,1924,2076,18348
1294,2232,1832,16316
1295,932,2864,16408
1296,932,2864,16408
1297,-744,4128,18132
1298,-308,2356,19316
1299,1516,-1872,20800
1300,3020,-4924,20400
1301,4964,-4136,14568
1302,6008,-984,11508
1303,4392,-1252,15484
1304,2372,-1012,19584
1305,1368,664,19776
1306,1128,952,18684
1307,1128,952,18684
1308,864,1876,17992
1309,476,3144,17104
1310,460,2036,17192
1311,1740,1616,16892
1312,1448,-252,20280
1313,2100,-2772,21032
1314,4096,-3980,16128
1315,5708,-1640,11724
1316,5144,-816,13768
1317,2932,-1228,18424
1318,2932,-1228,18424
1319,1356,-668,20328
1320,612,88,19968
1321,668,1036,19060
1322,968,2300,17708
1323,1528,1856,16444
1324,2028,1456,16280
1325,1624,928,17976
1326,1288,212,20208
1327,2104,-1892,19664
1328,4120,-2456,15308
1329,4120,-2456,15308
1330,5096,-1344,13308
1331,4380,-964,14884
1332,2748,-944,17716
1333,1652,-608,19232
1334,1016,88,19688
1335,652,736,19416
1336,844,1220,18404
1337,1720,1048,17280
1338,2272,776,16996
1339,2216,560,17392
1340,2216,560,17392
1341,2204,-164,17836
1342,2496,-240,17580
1343,2720,-584,16956
1344,3044,-708,16188
1345,3152,-816,16412
1346,2940,-800,17072
1347,2408,-532,17676
1348,2056,-276,18152
1349,1864,8,18296
1350,1916,-100,18108
1351,1916,-100,18108
1352,1836,-108,18164
1353,1772,56,18172
1354,2052,104,17768
1355,2352,172,17336
1356,2356,236,17048
1357,2344,48,17196
1358,2208,16,17528
1359,2020,-104,17808
1360,2156,20,17868
1361,2308,-128,17520
1362,2308,-128,17520
1363,2444,-316,17412
1364,2556,-392,17236
1365,2496,-400,17232
1366,2472,-328,17336
1367,2396,-308,17656
1368,2384,-344,17556
1369,2308,-300,17656
1370,2032,-160,17972
1371,2048,-236,17924
1372,2072,-120,17916
1373,2072,-120,17916
1374,2052,128,17788
1375,2184,144,17480
1376,2176,4,17548
1377,2236,72,17568
1378,2196,20,17488
1379,2088,0,17556
1380,2148,-92,17468
1381,2224,-144,17352
1382,2244,-228,17416
1383,2244,-228,17416
1384,2292,-212,17572
1385,2372,-168,17624
1386,2452,-144,17388
1387,2412,-268,17484
1388,2268,-376,17644
1389,2284,-288,17584
1390,2316,-316,17544
1391,2332,-268,17588
1392,2260,-276,17856
1393,2256,-264,17752
1394,2256,-264,17752
1395,2204,-284,17608
1396,2092,-108,17852
1397,1916,-88,17964
1398,2052,108,17696
1399,2160,80,17420
1400,2228,80,17372
1401,2228,0,17484
1402,2096,56,17772
1403,2128,100,17604
1404,2204,-44,17488
1405,2204,-44,17488
1406,2252,-100,17500
1407,2436,-152,17512
1408,2480,-356,17424
1409,2564,-460,17308
1410,2572,-392,17388
1411,2652,-476,17188
1412,2452,-476,17560
1413,2408,-356,17704
1414,2216,-120,17900
1415,2140,-208,17788
1416,2140,-208,17788
1417,2132,-148,17944
1418,1992,-32,18064
1419,1964,100,17968
1420,2176,208,17664
1421,2136,224,17428
1422,2196,200,17316
1423,2064,208,17536
1424,2088,52,17576
1425,2184,60,17528
1426,2360,-152,17196
1427,2360,-152,17196
1428,2468,-372,17104
1429,2692,-604,17036
1430,2824,-576,17128
1431,2792,-628,17208
1432,2592,-500,17484
1433,2368,-516,17808
1434,2148,-348,17960
1435,1944,-280,18332
1436,1832,40,18364
1437,1868,304,18112
1438,1868,304,18112
1439,2032,264,17664
1440,2280,460,17312
1441,2184,412,17252
1442,2092,332,17516
1443,1924,152,17764
1444,2108,0,17632
1445,2392,-424,17284
1446,2860,-692,16832
1447,3072,-852,16848
1448,2948,-736,16644
1449,2948,-736,16644
1450,2740,-672,17184
1451,2364,-476,17784
1452,2060,-372,18280
1453,1712,-168,18776
1454,1588,332,18892
1455,1780,656,18248
1456,2028,716,17516
1457,2236,888,17020
1458,2052,740,16988
1459,1672,240,17784
1460,1672,240,17784
1461,1960,208,17848
1462,2188,-436,17744
1463,2816,-1036,16628
1464,3248,-1252,16300
1465,3464,-1116,16156
1466,2928,-876,17016
1467,2340,-556,17900
1468,1872,-596,18608
1469,1500,-184,19148
1470,1288,764,18912
1471,1288,764,18912
1472,1576,1008,17940
1473,2088,904,17216
1474,2116,1224,16760
1475,1876,796,17000
1476,1672,356,18172
1477,2060,-244,18424
1478,2820,-1244,17344
1479,3548,-1764,16064
1480,4000,-1404,15392
1481,3416,-1156,16396
1482,3416,-1156,16396
1483,2484,-840,17860
1484,1716,-764,19012
1485,1060,-144,19760
1486,1024,1016,19108
1487,1472,1356,17824
1488,2060,1256,16720
1489,2080,1756,16228
1490,1532,944,17112
1491,1472,704,18632
1492,1472,704,18632
1493,1736,-980,19480
1494,3276,-2292,16864
1495,4380,-2184,14708
1496,4400,-1456,14848
1497,3428,-1160,16792
1498,2136,-1236,18896
1499,1240,-688,20072
1500,728,736,19792
1501,964,1736,18384
1502,1788,1856,16756
1503,1788,1856,16756
1504,2156,2092,15708
1505,1652,1548,16268
1506,1216,1448,18700
1507,1064,-468,21036
1508,2928,-2976,18488
1509,4764,-3192,14100
1510,5384,-1576,13004
1511,4176,-1268,15664
1512,2168,-1676,19428
1513,1092,-528,20748
1514,1092,-528,20748
1515,636,1040,19928
1516,872,1996,18252
1517,1648,2544,16420
1518,1904,2728,15008
1519,1328,1616,16456
1520,1196,1572,18972
1521,648,-1140,22656
1522,2948,-4412,19044
1523,5816,-3732,12456
1524,6156,-1272,11864
1525,6156,-1272,11864
1526,3988,-1588,16524
1527,1644,-1436,20848
1528,796,252,20920
1529,880,1520,19212
1530,1264,2648,17384
1531,1292,3544,15568
1532,824,2384,15724
1533,1284,2240,17180
1534,504,140,22208
1535,1584,-3744,22984
1536,1584,-3744,22984
1537,4712,-5412,15348
1538,6920,-2204,9600
1539,5636,-1224,13432
1540,2420,-1492,19800
1541,732,4,21400
1542,964,1096,19504
1543,1332,2392,17332
1544,968,3764,15612
1545,-32,3080,16132
1546,816,2660,16740
1547,816,2660,16740
1548,696,24,21352
1549,1068,-4036,24284
1550,4412,-6124,16392
1551,7160,-2504,9264
1552,5972,-1348,13048
1553,2824,-1060,19608
1554,784,648,21252
1555,1140,1292,19200
1556,1652,2472,16772
1557,632,3568,15656
1558,632,3568,15656
1559,-304,4092,16376
1560,116,2204,18060
1561,1160,-1608,22392
1562,1756,-5812,23508
1563,5288,-5448,13764
1564,7328,-1684,9044
1565,4964,-1628,15256
1566,1912,-148,20660
1567,684,1688,20548
1568,1588,1644,17736
1569,1588,1644,17736
1570,1624,2828,15516
1571,-556,4228,16632
1572,-500,4068,17404
1573,872,36,20196
1574,1400,-4992,24592
1575,4064,-6796,18268
1576,6792,-2924,9908
1577,5992,-1596,12456
1578,2980,-1044,19292
1579,2980,-1044,19292
1580,1052,1600,20624
1581,1388,2032,18400
1582,2028,2364,15760
1583,24,4168,16196
1584,-1128,4840,17520
1585,116,1284,19476
1586,1308,-4536,23852
1587,3608,-7332,20128
1588,6456,-3920,10920
1589,6332,-1368,11560
1590,6332,-1368,11560
1591,3308,-1264,18636
1592,1216,1436,20764
1593,1328,2692,18424
1594,2384,2296,15376
1595,488,4296,15716
1596,-1416,5236,17892
1597,-436,1596,19856
1598,1196,-5044,23940
1599,3504,-7800,20260
1600,6296,-4268,11004
1601,6296,-4268,11004
1602,6296,-1384,11648
1603,3364,-1284,18508
1604,1168,1740,20592
1605,1608,3232,18012
1606,2616,2220,15116
1607,572,4684,15300
1608,-1820,5200,18488
1609,-492,996,20736
1610,1204,-6120,24472
1611,4132,-7988,18972
1612,4132,-7988,18972
1613,6884,-3688,10248
1614,5824,-1284,12848
1615,2800,-760,19260
1616,1228,2356,20276
1617,2220,3472,17092
1618,2556,2408,14780
1619,340,5496,15256
1620,-2288,4968,19480
1621,-536,-952,22408
1622,1496,-7856,24384
1623,1496,-7856,24384
1624,5276,-7616,15632
1625,7200,-2552,9504
1626,4824,-1224,15032
1627,1840,16,20388
1628,1428,3364,19356
1629,3044,3340,15504
1630,2300,3212,14476
1631,-500,6000,16292
1632,-2068,3712,20752
1633,-200,-4032,24596
1634,-200,-4032,24596
1635,2736,-8944,22020
1636,6700,-5948,11532
1637,6772,-1496,10752
1638,3420,-720,17976
1639,1088,1656,20872
1640,2100,4188,17676
1641,3332,2596,14112
1642,1568,4892,14192
1643,-2268,5616,19048
1644,-1412,544,22856
1645,-1412,544,22856
1646,648,-7844,25380
1647,4760,-8684,16760
1648,7400,-3304,9252
1649,5060,-812,14764
1650,1768,344,20544
1651,1152,3632,19648
1652,3232,3996,14972
1653,2724,2956,13836
1654,-92,5952,15756
1655,-2584,3604,21712
1656,-2584,3604,21712
1657,-728,-4740,25640
1658,2892,-9796,21356
1659,7156,-5992,10716
1660,6540,-1312,11540
1661,2856,184,18784
1662,684,2548,20720
1663,2344,4264,16980
1664,3624,2072,13732
1665,1420,4536,14684
1666,-2736,4972,20464
1667,-2736,4972,20464
1668,-1256,-356,23360
1669,1444,-7964,23548
1670,5300,-7352,14792
1671,6936,-1900,10208
1672,4520,-284,15588
1673,1828,-224,20104
1674,1452,2032,19364
1675,2688,2508,16348
1676,1952,1928,15688
1677,-356,4400,17144
1678,-356,4400,17144
1679,-1664,3596,19924
1680,540,-820,20940
1681,2552,-5524,21544
1682,4876,-5420,15528
1683,6076,-1512,11540
1684,4804,-896,14652
1685,2692,-1292,19260
1686,1500,704,19876
1687,1424,1284,18504
1688,1424,1284,18504
1689,1200,1752,17356
1690,496,3076,16864
1691,-168,2604,17688
1692,1092,1676,17632
1693,1816,-732,20176
1694,2464,-3572,20708
1695,4332,-4056,15740
1696,5772,-1444,11800
1697,4900,-984,14224
1698,2820,-1088,18672
1699,2820,-1088,18672
1700,1240,-132,20224
1701,712,336,19572
1702,676,1324,18912
1703,684,2744,17652
1704,1224,2108,16440
1705,1964,1412,16236
1706,1524,892,18512
1707,1172,-608,21224
1708,2668,-2904,19128
1709,4916,-2668,13832
1710,4916,-2668,13832
1711,5432,-1024,12752
1712,4204,-948,15484
1713,2280,-1212,18724
1714,1108,-480,20116
1715,656,472,19752
1716,740,1248,18952
1717,1316,1496,17792
1718,1968,1324,16996
1719,2068,900,16936
1720,1732,304,18092
1721,1732,304,18092
1722,1848,-96,18536
1723,2424,-1056,17648
1724,3516,-1200,15764
1725,3940,-1140,15408
1726,3448,-1048,16000
1727,2612,-904,17452
1728,1936,-472,18392
1729,1612,96,18580
1730,1452,84,18780
1731,1448,256,18700
1732,1448,256,18700
1733,1688,436,18116
1734,2012,260,17556
1735,2360,164,17172
1736,2476,184,16928
1737,2468,-36,16992
1738,2256,-52,17360
1739,2264,-180,17496
1740,2360,-172,17436
1741,2368,-320,17404
1742,2500,-420,17224
1743,2500,-420,17224
1744,2588,-448,17256
1745,2548,-460,17424
1746,2292,-312,17488
1747,2272,-260,17588
1748,2216,-80,17648
1749,2176,-140,17704
1750,2092,-104,18152
1751,1964,-16,18096
1752,2056,216,17868
1753,2252,92,17528
1754,2252,92,17528
1755,2288,172,17432
1756,2236,-4,17540
1757,2128,-164,17648
1758,2152,-32,17740
1759,2192,156,17520
1760,2216,-20,17592
1761,2368,-48,17496
1762,2380,-308,17472
1763,2352,-248,17332
1764,2488,-220,17208
1765,2488,-220,17208
1766,2540,-288,17280
1767,2372,-332,17576
1768,2348,-284,17768
1769,2280,-196,17544
1770,2100,-164,17532
1771,2144,-220,17676
1772,2196,-324,17628
1773,2220,-232,17624
1774,2164,-144,17896
1775,2208,-32,17884
1776,2208,-32,17884
1777,2224,-20,17876
1778,2240,48,17496
1779,2264,-52,17444
1780,2200,-72,17656
1781,2040,-68,17596
1782,2232,128,17484
1783,2324,-56,17348
1784,2396,-136,17380
1785,2344,-272,17436
1786,2368,-220,17304
1787,2368,-220,17304
1788,2396,-296,17276
1789,2480,-272,17192
1790,2372,-384,17196
1791,2284,-384,17476
1792,2164,-336,17672
1793,2144,-172,17720
1794,2240,-76,17656
1795,2056,-168,17836
1796,2072,-72,17944
1797,2072,-72,17944
1798,2120,48,17828
1799,2264,220,17524
1800,2368,264,17516
1801,2288,168,17368
1802,2108,60,17612
1803,2068,108,17608
1804,2168,56,17404
1805,2188,52,17364
1806,2312,-208,17396
1807,2488,-392,17240
1808,2488,-392,17240
1809,2504,-596,17108
1810,2688,-440,17084
1811,2600,-460,17220
1812,2392,-500,17640
1813,2200,-388,17880
1814,2148,-212,17704
1815,2088,-224,18064
1816,1880,-52,18272
1817,1836,224,18064
1818,2092,176,17688
1819,2092,176,17688
1820,2240,332,17324
1821,2232,348,17240
1822,2028,284,17504
1823,2020,72,17732
1824,2124,124,17656
1825,2244,-212,17424
1826,2616,-536,17004
1827,2828,-864,16820
1828,2852,-680,16752
1829,2724,-616,16972
1830,2724,-616,16972
1831,2476,-504,17664
1832,2256,-364,17868
1833,1928,-320,18336
1834,1560,-60,18780
1835,1656,392,18420
1836,1884,412,17736
1837,2136,576,17148
1838,2176,524,17052
1839,1940,428,17400
1840,1736,20,17960
1841,1736,20,17960
1842,2024,60,17776
1843,2376,-588,17232
1844,2936,-1016,16616
1845,3260,-1164,16580
1846,3172,-1008,16548
1847,2696,-812,17284
1848,2268,-544,17924
1849,1892,-480,18532
1850,1560,-132,19032
1851,1444,608,18784
1852,1444,608,18784
1853,1780,768,17872
1854,2108,792,17188
1855,2060,972,17040
1856,1964,748,17124
1857,1692,280,18088
1858,2020,-96,18192
1859,2676,-924,17344
1860,3292,-1328,16160
1861,3728,-1288,15696
1862,3388,-1008,16500
1863,3388,-1008,16500
1864,2636,-732,17768
1865,1988,-628,18556
1866,1308,-304,19268
1867,1120,668,19180
1868,1364,1188,18164
1869,1876,1064,16968
1870,1928,1316,16568
1871,1840,1108,16760
1872,1436,432,18252
1873,1880,-184,18740
1874,1880,-184,18740
1875,2752,-1484,17696
1876,3720,-2072,15796
1877,4344,-1408,14912
1878,3740,-1224,16148
1879,2564,-940,17872
1880,1600,-940,19416
1881,948,-96,19944
1882,948,1252,19052
1883,1488,1604,17620
1884,1488,1604,17620
1885,2180,1552,16352
1886,2108,1888,15840
1887,1332,1112,17652
1888,1412,768,19156
1889,1836,-1456,19824
1890,3600,-2964,16456
1891,4992,-2200,13820
1892,4716,-1236,14576
1893,3284,-1300,17152
1894,1852,-1400,19708
1895,1852,-1400,19708
1896,804,-48,20464
1897,596,1368,19420
1898,1192,2048,17928
1899,1868,2300,16188
1900,2032,2320,15160
1901,1220,1484,17168
1902,976,1156,19752
1903,1400,-1660,21548
1904,3728,-4136,16988
1905,5864,-2768,12324
1906,5864,-2768,12324
1907,5440,-1188,13220
1908,3348,-1564,17504
1909,1528,-1408,20772
1910,668,212,20616
1911,688,1604,18940
1912,1268,2524,17092
1913,1604,3240,15536
1914,1184,2108,15600
1915,1236,2220,17420
1916,388,280,21848
1917,388,280,21848
1918,1588,-3456,21996
1919,4768,-5000,14936
1920,6568,-2044,10512
1921,5348,-1200,13792
1922,2428,-1692,19680
1923,780,-212,21388
1924,864,1044,19724
1925,1220,2144,17712
1926,1184,3572,15976
1927,528,2764,15608
1928,528,2764,15608
1929,1064,2784,16264
1930,580,612,20916
1931,1080,-2992,23788
1932,3808,-5964,17892
1933,6964,-2976,10032
1934,6444,-1208,11968
1935,3244,-1380,18712
1936,860,208,21508
1937,856,1180,19808
1938,1488,2100,17492
1939,1488,2100,17492
1940,1120,3612,15656
1941,-60,3352,16220
1942,596,3000,16568
1943,896,-104,20984
1944,992,-4300,24492
1945,4160,-6244,17192
1946,7104,-2584,9304
1947,6080,-1520,12692
1948,2984,-948,19256
1949,672,1140,21288
1950,672,1140,21288
1951,1064,1528,18988
1952,1800,2520,16360
1953,428,3720,15880
1954,-384,4504,16636
1955,64,2064,18520
1956,1232,-2364,22824
1957,2180,-6272,22680
1958,5524,-4976,13028
1959,7156,-1572,9672
1960,4632,-1608,16340
1961,4632,-1608,16340
1962,1712,344,20660
1963,888,2000,20052
1964,1896,1908,17152
1965,1380,3232,15516
1966,-604,4908,16728
1967,-704,3668,17980
1968,1048,-1148,21080
1969,1768,-6132,24200
1970,4772,-6288,15848
1971,7044,-2116,9456
1972,7044,-2116,9456
1973,5384,-1584,14364
1974,2320,-324,20004
1975,932,2228,20004
1976,1852,2220,17368
1977,1968,2772,15380
1978,-460,4980,16540
1979,-1280,4432,18348
1980,608,-608,20812
1981,1716,-6388,24276
1982,4660,-6984,16848
1983,4660,-6984,16848
1984,6888,-2500,9620
1985,5436,-1344,13916
1986,2408,-460,20012
1987,1132,2524,20064
1988,2024,2816,17120
1989,2104,2704,15160
1990,-292,5316,16224
1991,-1788,4612,18876
1992,180,-872,21512
1993,180,-872,21512
1994,1756,-7024,24244
1995,4972,-7188,16200
1996,7044,-2604,9776
1997,5168,-1224,14616
1998,2208,-140,20284
1999,1260,3064,19744
2000,2532,3036,16284
2001,2128,2844,14860
2002,-548,5640,16112
2003,-2068,4204,19744
2004,-2068,4204,19744
2005,104,-2480,22900
2006,2212,-8112,23620
2007,5796,-6748,14032
2008,6892,-1972,10036
2009,4384,-1092,16432
2010,1584,616,20768
2011,1524,3632,18780
2012,2932,2844,15192
2013,1812,3704,14716
2014,-1320,5784,17292
2015,-1320,5784,17292
2016,-1752,2884,20712
2017,236,-5188,24560
2018,3304,-9036,20972
2019,6676,-5240,10956
2020,6268,-1396,11684
2021,3080,-620,18584
2022,1144,2084,20696
2023,2316,4224,17264
2024,3136,2480,14372
2025,1248,5156,14600
2026,1248,5156,14600
2027,-2552,5408,19604
2028,-1224,-228,22824
2029,1132,-8224,24812
2030,5124,-8376,16064
2031,7292,-3080,9576
2032,4720,-860,15304
2033,1688,536,20420
2034,1372,3852,19340
2035,3292,3796,14876
2036,2616,3188,13992
2037,2616,3188,13992
2038,-424,6072,16180
2039,-2432,3552,21468
2040,-584,-5180,25532
2041,3064,-9800,21208
2042,7208,-5864,10640
2043,6392,-1468,11772
2044,2852,-108,18944
2045,740,2804,20484
2046,2412,4824,16284
2047,3464,2152,13900
2048,3464,2152,13900
2049,1652,4904,14624
2050,-2764,4876,20708
2051,-1428,-940,23668
2052,1608,-8320,23632
2053,5536,-7348,14464
2054,6916,-1880,10092
2055,4208,-256,15872
2056,1652,236,20368
2057,1708,2604,19036
2058,3208,2388,15808
2059,3208,2388,15808
2060,2012,2232,15552
2061,-596,5040,17340
2062,-1800,3644,20484
2063,512,-2108,21868
2064,2920,-6656,21068
2065,5224,-5072,14072
2066,6212,-908,11300
2067,4192,-972,15876
2068,2224,-860,19512
2069,1668,1260,19212
2070,1668,1260,19212
2071,1644,1412,17892
2072,1276,2440,17012
2073,-36,3240,17352
2074,-316,3204,17848
2075,832,1044,18568
2076,1972,-2184,20844
2077,3276,-4572,19264
2078,5212,-3160,13388
2079,5780,-980,11944
2080,4052,-1404,16120
2081,4052,-1404,16120
2082,2088,-648,19640
2083,1072,200,19820
2084,904,560,19176
2085,616,2212,18432
2086,664,2872,16896
2087,1308,1744,16272
2088,1920,1324,17056
2089,1252,308,20284
2090,1684,-2004,20988
2091,1684,-2004,20988
2092,3908,-3452,16196
2093,5680,-1836,12128
2094,5072,-740,13660
2095,3064,-1176,17580
2096,1584,-1020,19940
2097,844,68,19928
2098,652,984,19292
2099,924,1752,18364
2100,1524,1900,17364
2101,1908,1236,17024
2102,1908,1236,17024
2103,1888,920,17428
2104,1404,248,19052
2105,2164,-788,18612
2106,3344,-1580,16424
2107,4096,-1420,14804
2108,3888,-972,15136
2109,3068,-932,16764
2110,2196,-516,18288
2111,1596,-12,18792
2112,1184,148,19092
2113,1184,148,19092
2114,1288,316,19056
2115,1656,728,18324
2116,2020,592,17360
2117,2360,456,17224
2118,2428,340,17152
2119,2360,84,17024
2120,2420,-152,17268
2121,2508,-136,17340
2122,2480,-292,17436
2123,2608,-352,17224
2124,2608,-352,17224
2125,2648,-452,17320
2126,2516,-476,17300
2127,2424,-476,17492
2128,2356,-336,17708
2129,2328,-236,17700
2130,2204,-120,17860
2131,2000,-196,18028
2132,1960,-132,18168
2133,2024,184,17960
2134,2272,156,17500
2135,2272,156,17500
2136,2372,116,17260
2137,2208,124,17332
2138,2132,24,17624
2139,2172,-44,17884
2140,2260,116,17548
2141,2340,-24,17432
2142,2332,-40,17348
2143,2300,-260,17472
2144,2412,-312,17388
2145,2484,-364,17368
2146,2484,-364,17368
2147,2456,-216,17352
2148,2376,-284,17368
2149,2268,-180,17500
2150,2232,-140,17604
2151,2244,-152,17660
2152,2220,-164,17604
2153,2084,-164,17712
2154,2160,-88,17876
2155,2192,60,17744
2156,2200,-24,17676
2157,2200,-24,17676
2158,2316,-148,17540
2159,2376,-80,17460
2160,2192,-80,17588
2161,2116,-36,17608
2162,2176,52,17544
2163,2308,-64,17552
2164,2352,-140,17532
2165,2296,-180,17416
2166,2360,-132,17384
2167,2332,-136,17520
2168,2332,-136,17520
2169,2280,-204,17528
2170,2368,-228,17540
2171,2456,-208,17456
2172,2244,-112,17552
2173,2164,-152,17684
2174,2204,-188,17596
2175,2264,-292,17436
2176,2228,-220,17420
2177,2232,-144,17604
2178,2244,-60,17620
2179,2244,-60,17620
2180,2320,-172,17644
2181,2400,-140,17576
2182,2256,-96,17668
2183,2172,-92,17592
2184,2156,4,17660
2185,2252,-92,17636
2186,2280,-80,17564
2187,2272,-104,17496
2188,2312,-160,17540
2189,2264,-120,17592
2190,2264,-120,17592
2191,2268,-16,17508
2192,2320,0,17444
2193,2228,-176,17528
2194,2184,-248,17664
2195,2232,-88,17660
2196,2280,-132,17448
2197,2292,-104,17520
2198,2224,-192,17540
2199,2252,-196,17688
2200,2252,-196,17688
2201,2320,-132,17608
2202,2360,-120,17640
2203,2284,-220,17672
2204,2224,-248,17648
2205,2216,-252,17524
2206,2244,-88,17460
2207,2260,-192,17496
2208,2252,-160,17428
2209,2264,-212,17448
2210,2240,-176,17500
2211,2240,-176,17500
2212,2280,-80,17452
2213,2312,-96,17544
2214,2360,-160,17468
2215,2368,-112,17512
2216,2304,-64,17540
2217,2348,-148,17572
2218,2340,-120,17424
2219,2332,-188,17504
2220,2260,-152,17536
2221,2212,-196,17580
2222,2212,-196,17580
2223,2264,-80,17696
2224,2264,-52,17608
2225,2268,-124,17476
2226,2288,-220,17484
2227,2320,-96,17584
2228,2252,-52,17576
2229,2264,-72,17616
2230,2272,-152,17640
2231,2320,-120,17548
2232,2256,-132,17624
2233,2256,-132,17624
2234,2224,-92,17576
2235,2220,-80,17612
2236,2216,-152,17664
2237,2276,-208,17544
2238,2244,-100,17408
2239,2308,-132,17512
2240,2260,-144,17524
2241,2248,-184,17516
2242,2264,-200,17508
2243,2268,-224,17524
2244,2268,-224,17524
2245,2304,-224,17580
2246,2264,-180,17640
2247,2204,-120,17684
2248,2256,-132,17664
2249,2216,-180,17556
2250,2148,-120,17480
2251,2172,-176,17440
2252,2224,-88,17532
2253,2252,-176,17532
2254,2284,-92,17632
2255,2284,-92,17632
2256,2400,-160,17608
2257,2208,-160,17616
2258,2168,-152,17592
2259,2328,-184,17560
2260,2304,-100,17512
2261,2256,-232,17504
2262,2244,-112,17540
2263,2168,-116,17536
2264,2104,-88,17592
2265,2236,-88,17560
2266,2236,-88,17560
2267,2220,-208,17688
2268,2216,-168,17672
2269,2260,-172,17568
2270,2264,-204,17528
2271,2252,-120,17488
2272,2264,-76,17480
2273,2224,-56,17588
2274,2268,-160,17596
2275,2232,-124,17604
2276,2232,-72,17596
2277,2232,-72,17596
2278,2244,-80,17488
2279,2304,-184,17604
2280,2324,-100,17672
2281,2392,-188,17524
2282,2356,-180,17636
2283,2232,-92,17764
2284,2220,-128,17596
2285,2320,-160,17448
2286,2312,-156,17632
2287,2228,-216,17572
2288,2228,-216,17572
2289,2188,-152,17460
2290,2232,-132,17596
2291,2296,-120,17496
2292,2208,-116,17512
2293,2284,-132,17476
2294,2344,-120,17536
2295,2268,-116,17564
2296,2272,-20,17548
2297,2176,-100,17632
2298,2228,-44,17580
2299,2228,-44,17580
2300,2332,-136,17564
2301,2408,-128,17528
2302,2332,-188,17608
2303,2296,-292,17548
2304,2312,-192,17444
2305,2348,-152,17548
2306,2392,-160,17552
2307,2248,-76,17580
2308,2244,-128,17564
2309,2324,-120,17444
2310,2324,-120,17444
2311,2364,-96,17456
2312,2260,-84,17608
2313,2328,-140,17688
2314,2280,-196,17544
2315,2228,-176,17544
2316,2236,-176,17548
2317,2244,-112,17688
2318,2216,-184,17520
2319,2200,-128,17560
2320,2220,-152,17596
2321,2220,-152,17596
2322,2252,-188,17648
2323,2224,-80,17608
2324,2236,-100,17544
2325,2240,-216,17516
2326,2192,-84,17632
2327,2248,-84,17520
2328,2332,-52,17608
2329,2276,-120,17640
2330,2260,-76,17500
2331,2260,-76,17500
2332,2240,-88,17444
2333,2244,-88,17516
2334,2228,-80,17616
2335,2264,-132,17644
2336,2280,-196,17644
2337,2196,-68,17628
2338,2172,-164,17636
2339,2192,-228,17468
2340,2256,-68,17404
2341,2340,-132,17576
2342,2340,-132,17576
2343,2280,-148,17580
2344,2308,-88,17620
2345,2272,-124,17640
2346,2280,-156,17720
2347,2176,-68,17652
2348,2168,-68,17596
2349,2224,-76,17448
2350,2280,-120,17472
2351,2264,-60,17480
2352,2244,-132,17484
2353,2244,-132,17484
2354,2228,-192,17456
2355,2172,-124,17592
2356,2288,-188,17608
2357,2212,-156,17632
2358,2080,-96,17556
2359,2280,-48,17524
2360,2224,-92,17520
2361,2196,-124,17696
2362,2196,-164,17524
2363,2316,-124,17612
2364,2316,-124,17612
2365,2232,-168,17564
2366,2204,-196,17528
2367,2232,-196,17532
2368,2252,-40,17520
2369,2272,-80,17652
2370,2332,-132,17604
2371,2340,-156,17552
2372,2340,-144,17656
2373,2348,-188,17556
2374,2368,-188,17468
2375,2368,-188,17468
2376,2264,-116,17456
2377,2300,-112,17468
2378,2328,-220,17588
2379,2408,-148,17604
2380,2268,-88,17516
2381,2320,-128,17424
2382,2324,-120,17588
2383,2332,-184,17400
2384,2280,-156,17480
2385,2200,-96,17576
2386,2200,-96,17576
2387,2216,-48,17516
2388,2348,-120,17508
2389,2228,-60,17564
2390,2220,-116,17628
2391,2248,-104,17572
2392,2288,-140,17504
2393,2284,-160,17456
2394,2360,-116,17476
2395,2332,-140,17552
2396,2356,-164,17580
2397,2356,-164,17580
2398,2272,-84,17536
2399,2252,-240,17412
2400,2272,-204,17492
2401,2320,-140,17564
2402,2316,-68,17484
2403,2232,-92,17508
2404,2156,-56,17664
2405,2164,-40,17688
2406,2200,-64,17584
2407,2164,-140,17500
2408,2164,-140,17500
2409,2300,-128,17496
2410,2248,-196,17660
2411,2276,-164,17636
2412,2276,-76,17544
2413,2300,-84,17480
2414,2264,-168,17536
2415,2236,-64,17644
2416,2296,-120,17688
2417,2292,-144,17652
2418,2320,-104,17632
2419,2320,-104,17632
2420,2180,-204,17680
2421,2272,-180,17648
2422,2196,-188,17664
2423,2296,-116,17556
2424,2320,-112,17524
2425,2280,-152,17668
2426,2260,-184,17484
2427,2312,-128,17428
2428,2304,-184,17564
2429,2304,-184,17564
2430,2184,-204,17596
2431,2296,-196,17504
2432,2240,-120,17480
2433,2280,-188,17708
2434,2292,-68,17728
2435,2392,-112,17608
2436,2320,-120,17592
2437,2284,-152,17604
2438,2240,-180,17544
2439,2272,-280,17456
2440,2272,-280,17456
2441,2252,-116,17508
2442,2320,-156,17536
2443,2244,-140,17620
2444,2212,-80,17584
2445,2200,-128,17420
2446,2276,-140,17460
2447,2220,-124,17556
2448,2196,-108,17628
2449,2284,-144,17504
2450,2296,-76,17492
2451,2296,-76,17492
2452,2380,-196,17436
2453,2280,-192,17436
2454,2280,-200,17560
2455,2244,-120,17596
2456,2264,-64,17564
2457,2384,-32,17516
2458,2304,-156,17552
2459,2292,-116,17484
2460,2328,-176,17516
2461,2260,-88,17572
2462,2260,-88,17572
2463,2296,-196,17608
2464,2348,-140,17596
2465,2316,-80,17608
2466,2288,-132,17416
2467,2332,-156,17508
2468,2372,-92,17476
2469,2444,-152,17676
2470,2368,-128,17484
2471,2256,-92,17468
2472,2160,-84,17548
2473,2160,-84,17548
2474,2168,-136,17344
2475,2232,-236,17336
2476,2340,-132,17484
2477,2312,-164,17596
2478,2320,-120,17436
2479,2284,-168,17432
2480,2244,-116,17576
2481,2340,-136,17628
2482,2352,-88,17624
2483,2312,-68,17592
2484,2312,-68,17592
2485,2276,-100,17668
2486,2268,-152,17552
2487,2280,-164,17556
2488,2320,-112,17572
2489,2280,-88,17600
2490,2276,-28,17556
2491,2212,24,17544
2492,2296,-96,17548
2493,2212,-44,17472
2494,2284,-136,17576
2495,2284,-136,17576
2496,2264,-196,17476
2497,2304,-204,17620
2498,2288,-180,17684
2499,2280,-184,17596
2500,2292,-180,17628
2501,2288,-168,17576
2502,2316,-224,17532
2503,2272,-60,17556
2504,2420,-44,17544
2505,2336,-88,17496
2506,2336,-88,17496
2507,2208,-196,17400
2508,2232,-144,17536
2509,2332,-112,17716
2510,2264,-96,17564
2511,2176,-232,17488
2512,2304,-124,17572
2513,2360,-120,17576
2514,2268,-60,17652
2515,2256,-104,17564
2516,2204,-128,17532
2517,2204,-128,17532
2518,2232,-132,17584
2519,2328,-168,17484
2520,2336,-160,17536
2521,2352,-96,17556
2522,2292,-84,17496
2523,2240,-160,17504
2524,2200,-188,17508
2525,2176,-192,17476
2526,2216,-176,17564
2527,2168,-120,17508
2528,2168,-120,17508
2529,2212,-72,17668
2530,2208,-152,17812
2531,2264,-176,17624
2532,2272,-196,17552
2533,2284,-148,17540
2534,2208,-56,17704
2535,2232,-16,17596
2536,2216,-100,17496
2537,2276,-112,17556
2538,2276,-112,17556
2539,2216,-88,17544
2540,2224,-32,17632
2541,2300,-116,17624
2542,2280,-164,17644
2543,2328,-156,17500
2544,2332,-100,17456
2545,2268,-192,17472
2546,2284,-276,17480
2547,2300,-204,17444
2548,2232,-144,17536
2549,2232,-144,17536
2550,2240,-104,17492
2551,2188,-140,17536
2552,2180,-192,17680
2553,2248,-236,17576
2554,2160,-92,17500
2555,2308,-68,17480
2556,2260,-12,17512
2557,2148,-140,17396
2558,2228,-84,17416
2559,2328,-224,17608
2560,2328,-224,17608
2561,2224,-220,17548
2562,2220,-132,17624
2563,2300,-144,17656
2564,2328,-204,17568
2565,2316,-128,17636
2566,2348,-204,17548
2567,2272,-220,17504
2568,2208,-100,17436
2569,2140,-80,17532
2570,2196,-56,17620
2571,2196,-56,17620
2572,2236,-88,17600
2573,2312,-120,17432
2574,2276,-196,17472
2575,2288,-156,17528
2576,2300,-172,17556
2577,2276,-168,17728
2578,2332,-112,17640
2579,2344,-104,17608
2580,2172,-172,17524
2581,2264,-128,17560
2582,2264,-128,17560
2583,2248,-84,17648
2584,2332,-4,17528
2585,2336,-68,17648
2586,2280,-128,17616
2587,2300,-136,17528
2588,2328,-116,17384
2589,2280,-100,17448
2590,2320,-140,17596
2591,2336,-164,17544
2592,2256,-124,17480
2593,2256,-124,17480
2594,2292,-208,17588
2595,2252,-196,17628
2596,2252,-132,17568
2597,2276,-48,17656
2598,2300,-100,17520
2599,2280,-132,17572
2600,2188,-188,17632
2601,2204,-208,17496
2602,2204,-116,17488
2603,2348,-140,17728
2604,2348,-140,17728
2605,2328,-92,17572
2606,2236,-76,17480
2607,2196,-116,17608
2608,2180,-132,17644
2609,2276,-208,17600
2610,2220,-216,17504
2611,2264,-192,17508
2612,2264,-152,17488
2613,2324,-144,17588
2614,2248,-152,17532
2615,2248,-152,17532
2616,2236,-188,17588
2617,2288,-212,17632
2618,2340,-84,17640
2619,2288,-120,17572
2620,2300,-220,17648
2621,2268,-96,17592
2622,2336,-156,17616
2623,2240,-32,17584
2624,2300,-56,17584
2625,2196,-112,17656
2626,2196,-112,17656
2627,2240,-160,17600
2628,2164,-184,17600
2629,2196,-232,17632
2630,2264,-136,17432
2631,2224,-172,17396
2632,2320,-176,17552
2633,2308,-104,17688
2634,2256,-56,17492
2635,2296,-232,17444
2636,2316,-140,17540
2637,2316,-140,17540
2638,2284,-216,17576
2639,2308,-220,17576
2640,2300,-220,17592
2641,2312,-160,17632
2642,2320,-108,17668
2643,2300,-76,17536
2644,2268,-192,17556
2645,2328,-196,17496
2646,2276,-268,17712
2647,2296,-152,17748
2648,2296,-152,17748
2649,2284,-112,17552
2650,2324,-136,17500
2651,2232,-124,17608
2652,2140,-180,17608
2653,2196,-88,17612
2654,2252,-104,17552
2655,2320,0,17520
2656,2420,-36,17536
2657,2424,-140,17644
2658,2424,-140,17644
2659,2368,-200,17544
2660,2312,-92,17636
2661,2256,-168,17532
2662,2300,-120,17560
2663,2280,-128,17548
2664,2268,-96,17548
2665,2272,-56,17580
2666,2284,-136,17568
2667,2256,-216,17544
2668,2288,-180,17592
2669,2288,-180,17592
2670,2308,-120,17792
2671,2268,-40,17504
2672,2360,-136,17516
2673,2344,-92,17604
2674,2272,-120,17748
2675,2276,-156,17596
2676,2244,-240,17488
2677,2344,-244,17496
2678,2268,-84,17644
2679,2164,-88,17676
2680,2164,-88,17676
2681,2220,-108,17580
2682,2240,-156,17612
2683,2296,-164,17448
2684,2308,-76,17516
2685,2256,-64,17572
2686,2212,-120,17528
2687,2176,-116,17656
2688,2232,-120,17664
2689,2272,-116,17532
2690,2352,-148,17616
2691,2352,-148,17616
2692,2208,-84,17640
2693,2308,-168,17472
2694,2272,-100,17556
2695,2320,-96,17592
2696,2300,-124,17600
2697,2252,-280,17584
2698,2336,-176,17520
2699,2280,-152,17508
2700,2288,-148,17580
2701,2300,-144,17636
2702,2300,-144,17636
2703,2312,-180,17588
2704,2232,-240,17504
2705,2188,-240,17580
2706,2304,-68,17644
2707,2232,-160,17724
2708,2332,-144,17700
2709,2312,-168,17564
2710,2312,-92,17524
2711,2332,-188,17512
2712,2252,-188,17536
2713,2252,-188,17536
2714,2204,-176,17748
2715,2164,-144,17684
2716,2232,-260,17664
2717,2220,-256,17532
2718,2268,-244,17536
2719,2288,-208,17512
2720,2280,-124,17504
2721,2176,-56,17476
2722,2184,-64,17496
2723,2244,-156,17616
2724,2244,-156,17616
2725,2312,-108,17772
2726,2292,-80,17648
2727,2284,-204,17480
2728,2240,-144,17476
2729,2132,-152,17404
2730,2260,-156,17600
2731,2320,-56,17500
2732,2324,-56,17600
2733,2252,-92,17580
2734,2260,-144,17596
2735,2260,-144,17596
2736,2268,-148,17572
2737,2336,-180,17448
2738,2336,-128,17620
2739,2276,-204,17660
2740,2264,-128,17524
2741,2280,-228,17488
2742,2308,-88,17476
2743,2300,-80,17580
2744,2272,-116,17556
2745,2264,-64,17360
2746,2264,-64,17360
2747,2192,-112,17504
2748,2276,-68,17636
2749,2340,-124,17528
2750,2276,-56,17528
2751,2256,-148,17656
2752,2188,-96,17572
2753,2292,-176,17520
2754,2264,-180,17544
2755,2248,-176,17604
2756,2248,-176,17604
2757,2284,-168,17564
2758,2272,-252,17664
2759,2236,-116,17536
2760,2148,-68,17588
2761,2212,-32,17572
2762,2156,-100,17456
2763,2104,-68,17636
2764,2180,-176,17640
2765,2196,-224,17496
2766,2236,-220,17596
2767,2236,-220,17596
2768,2172,-148,17588
2769,2200,-164,17344
2770,2264,-164,17436
2771,2260,-152,17592
2772,2240,-64,17460
2773,2168,-92,17532
2774,2300,-168,17568
2775,2280,-128,17636
2776,2316,-76,17652
2777,2296,-68,17548
2778,2296,-68,17548
2779,2220,-132,17480
2780,2292,-112,17616
2781,2312,-196,17644
2782,2312,-112,17640
2783,2200,-184,17672
2784,2220,-112,17560
2785,2256,-148,17464
2786,2264,-128,17696
2787,2224,-128,17560
2788,2312,-108,17420
2789,2312,-108,17420
2790,2316,-184,17456
2791,2228,-156,17532
2792,2232,-168,17624
2793,2212,-100,17520
2794,2252,-120,17664
2795,2240,-36,17652
2796,2320,-28,17676
2797,2292,-164,17568
2798,2208,-188,17436
2799,2220,-88,17512
2800,2220,-88,17512
2801,2272,-152,17628
2802,2260,-144,17588
2803,2240,-112,17584
2804,2240,-144,17404
2805,2276,-60,17484
2806,2328,-204,17456
2807,2220,-212,17488
2808,2300,-220,17592
2809,2268,-76,17572
2810,2308,-124,17496
2811,2308,-124,17496
2812,2376,-100,17600
2813,2364,-164,17544
2814,2284,-120,17592
2815,2200,-104,17548
2816,2168,-100,17580
2817,2268,-124,17608
2818,2260,-60,17488
2819,2252,-80,17500
2820,2248,12,17600
2821,2140,-88,17496
2822,2140,-88,17496
2823,2204,-64,17652
2824,2252,-188,17568
2825,2216,-156,17508
2826,2276,-148,17552
2827,2220,-216,17524
2828,2216,-192,17608
2829,2248,-120,17664
2830,2284,-100,17500
2831,2232,-12,17508
2832,2228,-88,17472
2833,2228,-88,17472
2834,2196,-60,17524
2835,2256,-120,17576
2836,2328,-128,17652
2837,2340,4,17716
2838,2272,-104,17632
2839,2280,-100,17588
2840,2220,-84,17652
2841,2220,-132,17676
2842,2264,-224,17472
2843,2340,-152,17460
2844,2340,-152,17460
2845,2324,-152,17532
2846,2300,-104,17544
2847,2272,-220,17652
2848,2288,-164,17716
2849,2324,-140,17612
2850,2280,-164,17588
2851,2216,-144,17664
2852,2312,-176,17536
2853,2356,-240,17504
2854,2260,-184,17508
2855,2260,-184,17508
2856,2260,-200,17524
2857,2312,-148,17516
2858,2272,-184,17568
2859,2296,-180,17480
2860,2320,-44,17604
2861,2304,-164,17628
2862,2216,-116,17444
2863,2284,-88,17412
2864,2256,-88,17448
2865,2256,-88,17448
2866,2216,-100,17520
2867,2212,-100,17664
2868,2332,-128,17700
2869,2320,-24,17664
2870,2280,-92,17540
2871,2232,-108,17576
2872,2224,-216,17604
2873,2308,-116,17520
2874,2340,-172,17452
2875,2388,-144,17528
2876,2388,-144,17528
2877,2312,-156,17588
2878,2184,-108,17600
2879,2204,-184,17504
2880,2292,-60,17512
2881,2360,-116,17556
2882,2312,-128,17596
2883,2260,-148,17516
2884,2320,-144,17520
2885,2304,-116,17620
2886,2348,-156,17508
2887,2348,-156,17508
2888,2368,-144,17576
2889,2292,-172,17632
2890,2284,-244,17632
2891,2228,-228,17608
2892,2264,-112,17400
2893,2296,-148,17472
2894,2312,-248,17576
2895,2228,-192,17612
2896,2252,-104,17440
2897,2232,-76,17664
2898,2232,-76,17664
2899,2248,-100,17620
2900,2260,-108,17624
2901,2264,-176,17508
2902,2336,-200,17520
2903,2436,-144,17712
2904,2352,-80,17772
2905,2180,-132,17564
2906,2200,-96,17616
2907,2252,-68,17700
2908,2312,-56,17696
2909,2312,-56,17696
2910,2284,-132,17636
2911,2280,-188,17636
2912,2204,-224,17592
2913,2232,-48,17560
2914,2164,-176,17608
2915,2204,-124,17456
2916,2128,-88,17632
2917,2188,-84,17648
2918,2280,-176,17480
2919,2308,-132,17588
2920,2308,-132,17588
2921,2284,-124,17552
2922,2216,-128,17576
2923,2332,-100,17692
2924,2308,-84,17424
2925,2296,-108,17360
2926,2248,-152,17380
2927,2212,-160,17536
2928,2368,-124,17588
2929,2280,-36,17432
2930,2260,-180,17408
2931,2260,-180,17408
2932,2284,-152,17476
2933,2272,-212,17608
2934,2216,-220,17524
2935,2200,-160,17508
2936,2232,-140,17680
2937,2248,-184,17544
2938,2268,-132,17604
2939,2176,-328,17640
2940,2236,-152,17536
2941,2272,-160,17380
2942,2272,-160,17380
2943,2252,-96,17436
2944,2224,-204,17520
2945,2216,-96,17484
2946,2172,-132,17464
2947,2260,-208,17480
2948,2336,-320,17564
2949,2272,-164,17620
2950,2240,-88,17532
2951,2272,-104,17572
2952,2204,-84,17488
2953,2204,-84,17488
2954,2228,-132,17616
2955,2252,-132,17684
2956,2304,-140,17716
2957,2280,-104,17592
2958,2232,-192,17452
2959,2212,-116,17580
2960,2208,-152,17504
2961,2272,-220,17468
2962,2292,-220,17520
2963,2308,-112,17592
2964,2308,-112,17592
2965,2360,-216,17564
2966,2244,-228,17592
2967,2256,-152,17612
2968,2300,-68,17504
2969,2264,-80,17548
2970,2204,-40,17508
2971,2224,-188,17556
2972,2192,-176,17636
2973,2256,-164,17600
2974,2256,-164,17600
2975,2276,-112,17664
2976,2280,-132,17704
2977,2248,-160,17676
2978,2248,-160,17600
2979,2316,-168,17464
2980,2272,-196,17628
2981,2184,-164,17696
2982,2228,-72,17576
2983,2248,-108,17412
2984,2336,-92,17400
2985,2336,-92,17400
2986,2276,-212,17552
2987,2348,-132,17532
2988,2244,-232,17332
2989,2204,-68,17480
2990,2184,-164,17644
2991,2268,-140,17672
2992,2276,-152,17772
2993,2248,-36,17612
2994,2352,-192,17484
2995,2252,-160,17508
2996,2252,-160,17508
2997,2276,-140,17488
2998,2252,-160,17480
2999,2196,-100,17512
